[{"rt":3231.5200000302866,"stimulus":"<div style=\"text-align: left\"><h3 id=\"evaluatingrhymes\">Evaluating rhymes</h3>\n</div><br><br>","button_pressed":"0","component":"Instructions","buttonResponseText":["And now to the actual experiment!"],"trial_type":"html-button-response","trial_index":0,"time_elapsed":3234,"internal_node_id":"0.0-0.0","stimuliFile":"examples/experimentListenAndRate/rhymeShortest.txt","participant":"e7b5d7"},{"rt":null,"stimulus":"<div style=\"font-size:60px;\">+</div>","key_press":null,"component":"Experiment","session":1,"experiment":"rhymeRep","item":"1","condition":"3","sessionTrial":1,"experimentTrial":1,"pList":3,"trialPart":"Fixation","trial_type":"html-keyboard-response","trial_index":1,"time_elapsed":4235,"internal_node_id":"0.0-1.0","stimuliFile":"examples/experimentListenAndRate/rhymeShortest.txt","participant":"e7b5d7"},{"rt":null,"stimulus":"examples/experimentListenAndRate/audio/R1I.mp3","key_press":null,"component":"Experiment","session":1,"experiment":"rhymeRep","item":"1","condition":"3","sessionTrial":1,"experimentTrial":1,"pList":3,"trialPart":"Listen to soundFile","trial_type":"audio-keyboard-response","trial_index":2,"time_elapsed":8872,"internal_node_id":"0.0-2.0","stimuliFile":"examples/experimentListenAndRate/rhymeShortest.txt","participant":"e7b5d7"},{"rt":2125.54000003729,"response":"61","stimulus":"<h3 id=\"howgooddidyoufindthisrhyme\">How good did you find this rhyme?</h3>","component":"Experiment","session":1,"experiment":"rhymeRep","item":"1","condition":"3","sessionTrial":1,"experimentTrial":1,"pList":3,"trialPart":"question1","text":"<h3 id=\"howgooddidyoufindthisrhyme\">How good did you find this rhyme?</h3>","trial_type":"html-slider-response","trial_index":3,"time_elapsed":11002,"internal_node_id":"0.0-3.0","stimuliFile":"examples/experimentListenAndRate/rhymeShortest.txt","participant":"e7b5d7"},{"rt":4019.96499998495,"stimulus":"<div style=\"text-align: left\"><h3 id=\"evaluatingrhymes\">Evaluating rhymes</h3>\n</div><br><br>","button_pressed":"0","component":"Instructions","buttonResponseText":["And now to the actual experiment!"],"trial_type":"html-button-response","trial_index":4,"time_elapsed":15023,"internal_node_id":"0.0-4.0","stimuliFile":"examples/experimentListenAndRate/rhymeShortest.txt","participant":"e7b5d7"},{"rt":null,"stimulus":"<div style=\"font-size:60px;\">+</div>","key_press":null,"component":"Experiment","session":1,"experiment":"rhymeRep","item":"1","condition":"3","sessionTrial":1,"experimentTrial":1,"pList":3,"trialPart":"Fixation","trial_type":"html-keyboard-response","trial_index":5,"time_elapsed":16024,"internal_node_id":"0.0-5.0","stimuliFile":"examples/experimentListenAndRate/rhymeShortest.txt","participant":"e7b5d7"},{"rt":null,"stimulus":"examples/experimentListenAndRate/audio/R1I.mp3","key_press":null,"component":"Experiment","session":1,"experiment":"rhymeRep","item":"1","condition":"3","sessionTrial":1,"experimentTrial":1,"pList":3,"trialPart":"Listen to soundFile","trial_type":"audio-keyboard-response","trial_index":6,"time_elapsed":20638,"internal_node_id":"0.0-6.0","stimuliFile":"examples/experimentListenAndRate/rhymeShortest.txt","participant":"e7b5d7"},{"rt":2099.2349999723956,"response":"73","stimulus":"<h3 id=\"howgooddidyoufindthisrhyme\">How good did you find this rhyme?</h3>","component":"Experiment","session":1,"experiment":"rhymeRep","item":"1","condition":"3","sessionTrial":1,"experimentTrial":1,"pList":3,"trialPart":"question1","text":"<h3 id=\"howgooddidyoufindthisrhyme\">How good did you find this rhyme?</h3>","trial_type":"html-slider-response","trial_index":7,"time_elapsed":22741,"internal_node_id":"0.0-7.0","stimuliFile":"examples/experimentListenAndRate/rhymeShortest.txt","participant":"e7b5d7"}]