[{"path":"examples/listenAndRate","language":"en","stimuliFile":"examples/listenAndRate/rhymeShortest.txt","helloFile":"examples/listenAndRate/hello.md","consentFile":"examples/listenAndRate/consent_production_prolific.md","goodbyeFile":"examples/listenAndRate/goodbye.md","logFile":"examples/listenAndRate/studyLog.json","soundCheckFile":"prosodylab/soundcheck_da.mp3","completionLink":"","completionCode":"","pListMethod":"log","participantCodeMethod":"randomAndDisplay","displayDataAfterFinish":true,"showProgressBar":true,"fullScreen":false,"doExperimentOnly":true,"component":"experimentSettings","trial_type":"call-function","trial_index":0,"time_elapsed":2,"internal_node_id":"0.0-0.0","participant":"91b68h"},{"rt":6387.694999924861,"stimulus":"<div style=\"text-align: left\"><h2 id=\"welcome\">Welcome!</h2>\n<p>This is a just test experiment, <strong>and not a real study!</strong></p>\n<p>It is meant to illustrate the prosodylab-js-experimenter. </p>\n<p>If you are here because you want to participate in an actual study, you're in the wrong place!</p>\n<p>The following experiment is a study in which you have to one rhyme. </p>\n<p>You can see the spreadsheet (a tab-delimited text file) used to generate the experiment <a href=\"examples/listenAndRate/rhymeShortest.txt\">here</a>.</p>\n<p>Apart from the spreadsheet and the soundfiles, you need to provide some files like the text for this 'hello'-screen, instructions, consent form etc. in markdown format. You can see the markdown file used to generate this page <a href=\"examples/listenAndRate/hello.md\">here</a></p>\n<p>If you want to proceed to the study, click below. At the end of the experiment you will be displayed the data that was saved. The data will actually be saved but will be destroyed.</p>\n<p>If instead you'd like to see a different study, here are a few other examples:</p>\n<ul>\n<li><p>Listen and Record: <a href=\"https://prosodylab.org/experimenter/testExperiment/exampleListenAndRecord.html\">here</a></p></li>\n<li><p>Planned production: <a href=\"https://prosodylab.org/experimenter/testExperiment/examplePlannedProduction.html\">here</a></p></li>\n</ul>\n</div><br><br>","button_pressed":"0","component":"hello","buttonResponseText":["<strong>Click here for the illustration trial. The data will be saved but will be destroyed. Press any key if you want to proceed!</strong>"],"trial_type":"html-button-response","trial_index":1,"time_elapsed":6391,"internal_node_id":"0.0-1.0","participant":"91b68h"},{"rt":1033.335000043735,"stimulus":"<div style=\"text-align: left\"><h3 id=\"evaluatingrhymes\">Evaluating rhymes</h3>\n</div><br><br>","button_pressed":"0","component":"Instructions","buttonResponseText":["And now to the actual experiment!"],"trial_type":"html-button-response","trial_index":2,"time_elapsed":7425,"internal_node_id":"0.0-2.0","participant":"91b68h"},{"rt":null,"stimulus":"<div style=\"font-size:60px;\">+</div>","key_press":null,"component":"Experiment","session":1,"experiment":"rhymeRep","item":"1","condition":"3","sessionTrial":1,"experimentTrial":1,"pList":3,"trialPart":"Fixation","trial_type":"html-keyboard-response","trial_index":3,"time_elapsed":8427,"internal_node_id":"0.0-3.0","participant":"91b68h"},{"rt":null,"stimulus":"examples/listenAndRate/audio/R1I.mp3","key_press":null,"component":"Experiment","session":1,"experiment":"rhymeRep","item":"1","condition":"3","sessionTrial":1,"experimentTrial":1,"pList":3,"trialPart":"Listen to soundFile","trial_type":"audio-keyboard-response","trial_index":4,"time_elapsed":13065,"internal_node_id":"0.0-4.0","participant":"91b68h"},{"rt":2106.110000051558,"response":"72","stimulus":"<h3 id=\"howgooddidyoufindthisrhyme\">How good did you find this rhyme?</h3>","component":"Experiment","session":1,"experiment":"rhymeRep","item":"1","condition":"3","sessionTrial":1,"experimentTrial":1,"pList":3,"trialPart":"question1","text":"<h3 id=\"howgooddidyoufindthisrhyme\">How good did you find this rhyme?</h3>","trial_type":"html-slider-response","trial_index":5,"time_elapsed":15175,"internal_node_id":"0.0-5.0","participant":"91b68h"}]