[{"path":"examples/listenAndRate","language":"en","stimuliFile":"examples/listenAndRate/rhymeShort.txt","helloFile":"examples/listenAndRate/helloScales.md","consentFile":"examples/listenAndRate/consent.md","goodbyeFile":"examples/listenAndRate/goodbye.md","logFile":"examples/listenAndRate/studyLog.json","soundCheckFile":"prosodylab/soundcheck_da.mp3","completionLink":"","completionCode":"","pListMethod":"log","participantCodeMethod":"randomAndDisplay","displayDataAfterFinish":true,"showProgressBar":true,"fullScreen":false,"hello":true,"consent":false,"languageQuestionnaire":false,"soundCheck":false,"headphoneScreener":false,"experimentSessions":true,"postExQuestionnaire":false,"musicQuestionnaire":false,"goodbye":false,"doExperimentOnly":false,"component":"experimentSettings","trial_type":"call-function","trial_index":0,"time_elapsed":2,"internal_node_id":"0.0-0.0","participant":"ab04sr"},{"rt":2101.4999999897555,"stimulus":"<div style=\"text-align: left\"><h2 id=\"welcome\">Welcome!</h2>\n<p>This is experiment illustrates different kinds of rating methods:</p>\n<ul>\n<li>6-point Likert scale using number keys</li>\n<li>6-point Likert scale using mouse click</li>\n<li>Slider which returns number between 0 and 100</li>\n</ul>\n<p>You can see the spreadsheet (a tab-delimited text file) used to generate the experiment <a href=\"examples/listenAndRate/rhymeShort.txt\">here</a>.</p>\n</div><br><br>","button_pressed":"0","component":"hello","buttonResponseText":["<strong>Click here for the illustration experiment. The data will be saved but will be destroyed. Press any key if you want to proceed!</strong>"],"trial_type":"html-button-response","trial_index":1,"time_elapsed":2105,"internal_node_id":"0.0-1.0","participant":"ab04sr"},{"rt":1388.1400000536814,"stimulus":"<div style=\"text-align: left\"><h3 id=\"evaluatingrhymes\">Evaluating rhymes</h3>\n</div><br><br>","button_pressed":"0","component":"Instructions","buttonResponseText":["And now to the actual experiment!"],"trial_type":"html-button-response","trial_index":2,"time_elapsed":3494,"internal_node_id":"0.0-2.0","participant":"ab04sr"},{"rt":null,"stimulus":"<div style=\"font-size:60px;\">+</div>","key_press":null,"component":"Experiment","session":5,"experiment":"rhymeRep","item":"1","condition":"3","sessionTrial":1,"experimentTrial":1,"pList":3,"trialPart":"Fixation","trial_type":"html-keyboard-response","trial_index":3,"time_elapsed":4496,"internal_node_id":"0.0-3.0","participant":"ab04sr"},{"rt":null,"stimulus":"examples/listenAndRate/audio/R1I.mp3","key_press":null,"component":"Experiment","session":5,"experiment":"rhymeRep","item":"1","condition":"3","sessionTrial":1,"experimentTrial":1,"pList":3,"trialPart":"Listen to soundFile","trial_type":"audio-keyboard-response","trial_index":4,"time_elapsed":9143,"internal_node_id":"0.0-4.0","participant":"ab04sr"},{"rt":3631.9300000322983,"response":"60","stimulus":"<h3 id=\"howgooddidyoufindthisrhyme\">How good did you find this rhyme?</h3>","component":"Experiment","session":5,"experiment":"rhymeRep","item":"1","condition":"3","sessionTrial":1,"experimentTrial":1,"pList":3,"trialPart":"question1","text":"<h3 id=\"howgooddidyoufindthisrhyme\">How good did you find this rhyme?</h3>","trial_type":"html-slider-response","trial_index":5,"time_elapsed":12779,"internal_node_id":"0.0-5.0","participant":"ab04sr"},{"rt":null,"stimulus":"<div style=\"font-size:60px;\">+</div>","key_press":null,"component":"Experiment","session":5,"experiment":"rhymeRep","item":"2","condition":"1","sessionTrial":2,"experimentTrial":2,"pList":3,"trialPart":"Fixation","trial_type":"html-keyboard-response","trial_index":6,"time_elapsed":13783,"internal_node_id":"0.0-6.0","participant":"ab04sr"},{"rt":null,"stimulus":"examples/listenAndRate/audio/R2B.mp3","key_press":null,"component":"Experiment","session":5,"experiment":"rhymeRep","item":"2","condition":"1","sessionTrial":2,"experimentTrial":2,"pList":3,"trialPart":"Listen to soundFile","trial_type":"audio-keyboard-response","trial_index":7,"time_elapsed":18791,"internal_node_id":"0.0-7.0","participant":"ab04sr"},{"rt":1614.3649999285117,"response":"36","stimulus":"<h3 id=\"howgooddidyoufindthisrhyme\">How good did you find this rhyme?</h3>","component":"Experiment","session":5,"experiment":"rhymeRep","item":"2","condition":"1","sessionTrial":2,"experimentTrial":2,"pList":3,"trialPart":"question1","text":"<h3 id=\"howgooddidyoufindthisrhyme\">How good did you find this rhyme?</h3>","trial_type":"html-slider-response","trial_index":8,"time_elapsed":20409,"internal_node_id":"0.0-8.0","participant":"ab04sr"},{"rt":null,"stimulus":"<div style=\"font-size:60px;\">+</div>","key_press":null,"component":"Experiment","session":5,"experiment":"rhymeRep","item":"3","condition":"2","sessionTrial":3,"experimentTrial":3,"pList":3,"trialPart":"Fixation","trial_type":"html-keyboard-response","trial_index":9,"time_elapsed":21412,"internal_node_id":"0.0-9.0","participant":"ab04sr"},{"rt":null,"stimulus":"examples/listenAndRate/audio/R3G.mp3","key_press":null,"component":"Experiment","session":5,"experiment":"rhymeRep","item":"3","condition":"2","sessionTrial":3,"experimentTrial":3,"pList":3,"trialPart":"Listen to soundFile","trial_type":"audio-keyboard-response","trial_index":10,"time_elapsed":26146,"internal_node_id":"0.0-10.0","participant":"ab04sr"},{"rt":1583.199999993667,"response":"72","stimulus":"<h3 id=\"howgooddidyoufindthisrhyme\">How good did you find this rhyme?</h3>","component":"Experiment","session":5,"experiment":"rhymeRep","item":"3","condition":"2","sessionTrial":3,"experimentTrial":3,"pList":3,"trialPart":"question1","text":"<h3 id=\"howgooddidyoufindthisrhyme\">How good did you find this rhyme?</h3>","trial_type":"html-slider-response","trial_index":11,"time_elapsed":27732,"internal_node_id":"0.0-11.0","participant":"ab04sr"}]