[{"path":"examples/listenAndRate","language":"en","stimuliFile":"examples/listenAndRate/rhymeShort.txt","helloFile":"examples/listenAndRate/helloScales.md","consentFile":"examples/listenAndRate/consent.md","goodbyeFile":"examples/listenAndRate/goodbye.md","logFile":"examples/listenAndRate/studyLog.json","soundCheckFile":"prosodylab/soundcheck_da.mp3","completionLink":"","completionCode":"","pListMethod":"log","participantCodeMethod":"randomAndDisplay","displayDataAfterFinish":true,"showProgressBar":true,"fullScreen":false,"hello":true,"consent":false,"languageQuestionnaire":false,"soundCheck":false,"headphoneScreener":false,"experimentSessions":true,"postExQuestionnaire":false,"musicQuestionnaire":false,"goodbye":false,"doExperimentOnly":false,"component":"experimentSettings","trial_type":"call-function","trial_index":0,"time_elapsed":2,"internal_node_id":"0.0-0.0","participant":"tuewor"},{"rt":1160.31499998644,"stimulus":"<div style=\"text-align: left\"><h2 id=\"welcome\">Welcome!</h2>\n<p>This is experiment illustrates different kinds of rating methods:</p>\n<ul>\n<li>6-point Likert scale using number keys</li>\n<li>6-point Likert scale using mouse click</li>\n<li>Slider which returns number between 0 and 100</li>\n</ul>\n<p>You can see the spreadsheet (a tab-delimited text file) used to generate the experiment <a href=\"examples/listenAndRate/rhymeShort.txt\">here</a>.</p>\n</div><br><br>","button_pressed":"0","component":"hello","buttonResponseText":["<strong>Click here for the illustration experiment. The data will be saved but will be destroyed. Press any key if you want to proceed!</strong>"],"trial_type":"html-button-response","trial_index":1,"time_elapsed":1163,"internal_node_id":"0.0-1.0","participant":"tuewor"},{"rt":2800.6000000750646,"stimulus":"<div style=\"text-align: left\"><h3 id=\"firstpartofthestudyevaluatingnaturalness\">First part of the study: Evaluating naturalness</h3>\n<p>This study consists of two parts. </p>\n<p>In this first part you will be evaluating how natural certain utterances sound, according to your intuition as a native speaker of English.</p>\n<p>On each trial, you'll first hear a sentence, and are then asked how natural it sounded to you. </p>\n</div><br><br>","button_pressed":"0","component":"Instructions","buttonResponseText":["Let's look at two examples, before proceeding to the experiment."],"trial_type":"html-button-response","trial_index":2,"time_elapsed":3965,"internal_node_id":"0.0-2.0","participant":"tuewor"},{"rt":null,"stimulus":"<div style=\"font-size:60px;\">+</div>","key_press":null,"component":"Experiment","session":1,"experiment":"williamsPractice","item":"2","condition":"1","sessionTrial":1,"experimentTrial":1,"pList":2,"trialPart":"Fixation","trial_type":"html-keyboard-response","trial_index":3,"time_elapsed":4970,"internal_node_id":"0.0-3.0","participant":"tuewor"},{"rt":null,"stimulus":"examples/listenAndRate/audio/W20B.mp3","key_press":null,"component":"Experiment","session":1,"experiment":"williamsPractice","item":"2","condition":"1","sessionTrial":1,"experimentTrial":1,"pList":2,"trialPart":"Listen to soundFile","trial_type":"audio-keyboard-response","trial_index":4,"time_elapsed":12250,"internal_node_id":"0.0-4.0","participant":"tuewor"},{"rt":1696.7300000833347,"response":"62","stimulus":"<h3 id=\"hownaturaldidyoufindthisutterance\">How natural did you find this utterance?</h3>","component":"Experiment","session":1,"experiment":"williamsPractice","item":"2","condition":"1","sessionTrial":1,"experimentTrial":1,"pList":2,"trialPart":"question1","text":"<h3 id=\"hownaturaldidyoufindthisutterance\">How natural did you find this utterance?</h3>","trial_type":"html-slider-response","trial_index":5,"time_elapsed":13950,"internal_node_id":"0.0-5.0","participant":"tuewor"},{"rt":null,"stimulus":"<div style=\"font-size:60px;\">+</div>","key_press":null,"component":"Experiment","session":1,"experiment":"williamsPractice","item":"1","condition":"2","sessionTrial":2,"experimentTrial":2,"pList":2,"trialPart":"Fixation","trial_type":"html-keyboard-response","trial_index":6,"time_elapsed":14952,"internal_node_id":"0.0-6.0","participant":"tuewor"},{"rt":null,"stimulus":"examples/listenAndRate/audio/W18G.mp3","key_press":null,"component":"Experiment","session":1,"experiment":"williamsPractice","item":"1","condition":"2","sessionTrial":2,"experimentTrial":2,"pList":2,"trialPart":"Listen to soundFile","trial_type":"audio-keyboard-response","trial_index":7,"time_elapsed":19892,"internal_node_id":"0.0-7.0","participant":"tuewor"},{"rt":1829.4999999925494,"response":"35","stimulus":"<h3 id=\"hownaturaldidyoufindthisutterance\">How natural did you find this utterance?</h3>","component":"Experiment","session":1,"experiment":"williamsPractice","item":"1","condition":"2","sessionTrial":2,"experimentTrial":2,"pList":2,"trialPart":"question1","text":"<h3 id=\"hownaturaldidyoufindthisutterance\">How natural did you find this utterance?</h3>","trial_type":"html-slider-response","trial_index":8,"time_elapsed":21725,"internal_node_id":"0.0-8.0","participant":"tuewor"},{"rt":930.2600000519305,"stimulus":"<div style=\"text-align: left\"><h3 id=\"evaluatingnaturalness\">Evaluating naturalness</h3>\n</div><br><br>","button_pressed":"0","component":"Instructions","buttonResponseText":["And now to the actual experiment!"],"trial_type":"html-button-response","trial_index":9,"time_elapsed":22656,"internal_node_id":"0.0-9.0","participant":"tuewor"},{"rt":null,"stimulus":"<div style=\"font-size:60px;\">+</div>","key_press":null,"component":"Experiment","session":2,"experiment":"williams","item":"1","condition":"3","sessionTrial":1,"experimentTrial":1,"pList":3,"trialPart":"Fixation","trial_type":"html-keyboard-response","trial_index":10,"time_elapsed":23660,"internal_node_id":"0.0-10.0","participant":"tuewor"},{"rt":null,"stimulus":"examples/listenAndRate/audio/W1I.mp3","key_press":null,"component":"Experiment","session":2,"experiment":"williams","item":"1","condition":"3","sessionTrial":1,"experimentTrial":1,"pList":3,"trialPart":"Listen to soundFile","trial_type":"audio-keyboard-response","trial_index":11,"time_elapsed":27263,"internal_node_id":"0.0-11.0","participant":"tuewor"},{"rt":2382.675000000745,"stimulus":"<h3 id=\"hownaturaldidyoufindthisutterance\">How natural did you find this utterance?</h3> <br/><br/>  \n            <em>Rate on a scale between: <br><br> \n            1 = <b>very unnatural</b> and \n            6 = <b>very natural</b></em>","key_press":51,"component":"Experiment","session":2,"experiment":"williams","item":"1","condition":"3","sessionTrial":1,"experimentTrial":1,"pList":3,"trialPart":"question1","text":"<h3 id=\"hownaturaldidyoufindthisutterance\">How natural did you find this utterance?</h3>","endPoints":["very unnatural","very natural"],"options":["1","2","3","4","5","6"],"trial_type":"html-keyboard-response","trial_index":12,"time_elapsed":29649,"internal_node_id":"0.0-12.0","participant":"tuewor","chosenOption":"3"},{"rt":null,"stimulus":"<div style=\"font-size:60px;\">+</div>","key_press":null,"component":"Experiment","session":2,"experiment":"williams","item":"2","condition":"1","sessionTrial":2,"experimentTrial":2,"pList":3,"trialPart":"Fixation","trial_type":"html-keyboard-response","trial_index":13,"time_elapsed":30650,"internal_node_id":"0.0-13.0","participant":"tuewor"},{"rt":null,"stimulus":"examples/listenAndRate/audio/W2B.mp3","key_press":null,"component":"Experiment","session":2,"experiment":"williams","item":"2","condition":"1","sessionTrial":2,"experimentTrial":2,"pList":3,"trialPart":"Listen to soundFile","trial_type":"audio-keyboard-response","trial_index":14,"time_elapsed":35237,"internal_node_id":"0.0-14.0","participant":"tuewor"},{"rt":1913.6400000425056,"stimulus":"<h3 id=\"hownaturaldidyoufindthisutterance\">How natural did you find this utterance?</h3> <br/><br/>  \n            <em>Rate on a scale between: <br><br> \n            1 = <b>very unnatural</b> and \n            6 = <b>very natural</b></em>","key_press":50,"component":"Experiment","session":2,"experiment":"williams","item":"2","condition":"1","sessionTrial":2,"experimentTrial":2,"pList":3,"trialPart":"question1","text":"<h3 id=\"hownaturaldidyoufindthisutterance\">How natural did you find this utterance?</h3>","endPoints":["very unnatural","very natural"],"options":["1","2","3","4","5","6"],"trial_type":"html-keyboard-response","trial_index":15,"time_elapsed":37154,"internal_node_id":"0.0-15.0","participant":"tuewor","chosenOption":"2"},{"rt":null,"stimulus":"<div style=\"font-size:60px;\">+</div>","key_press":null,"component":"Experiment","session":2,"experiment":"williams","item":"3","condition":"2","sessionTrial":3,"experimentTrial":3,"pList":3,"trialPart":"Fixation","trial_type":"html-keyboard-response","trial_index":16,"time_elapsed":38154,"internal_node_id":"0.0-16.0","participant":"tuewor"},{"rt":null,"stimulus":"examples/listenAndRate/audio/W3G.mp3","key_press":null,"component":"Experiment","session":2,"experiment":"williams","item":"3","condition":"2","sessionTrial":3,"experimentTrial":3,"pList":3,"trialPart":"Listen to soundFile","trial_type":"audio-keyboard-response","trial_index":17,"time_elapsed":42757,"internal_node_id":"0.0-17.0","participant":"tuewor"},{"rt":617.560000042431,"stimulus":"<h3 id=\"hownaturaldidyoufindthisutterance\">How natural did you find this utterance?</h3> <br/><br/>  \n            <em>Rate on a scale between: <br><br> \n            1 = <b>very unnatural</b> and \n            6 = <b>very natural</b></em>","key_press":52,"component":"Experiment","session":2,"experiment":"williams","item":"3","condition":"2","sessionTrial":3,"experimentTrial":3,"pList":3,"trialPart":"question1","text":"<h3 id=\"hownaturaldidyoufindthisutterance\">How natural did you find this utterance?</h3>","endPoints":["very unnatural","very natural"],"options":["1","2","3","4","5","6"],"trial_type":"html-keyboard-response","trial_index":18,"time_elapsed":43378,"internal_node_id":"0.0-18.0","participant":"tuewor","chosenOption":"4"},{"rt":1145.0249999761581,"stimulus":"<div style=\"text-align: left\"><h3 id=\"secondpartofthestudyevaluatingrhymes\">Second part of the study: Evaluating rhymes</h3>\n<p>In the second part of the study you will be evaluating how good or bad you find some rhymes, according  to your own intuitions about rhyming.</p>\n<p>On each trial, you'll first hear a sence with two parts that rhyme (a 'couplet'), and are then asked how good the rhyme sounded to you. </p>\n</div><br><br>","button_pressed":"0","component":"Instructions","buttonResponseText":["Let's look again at two examples, before proceeding to the experiment."],"trial_type":"html-button-response","trial_index":19,"time_elapsed":44523,"internal_node_id":"0.0-19.0","participant":"tuewor"},{"rt":null,"stimulus":"<div style=\"font-size:60px;\">+</div>","key_press":null,"component":"Experiment","session":4,"experiment":"rhymePractice","item":"1","condition":"1","sessionTrial":1,"experimentTrial":1,"pList":1,"trialPart":"Fixation","trial_type":"html-keyboard-response","trial_index":20,"time_elapsed":45526,"internal_node_id":"0.0-20.0","participant":"tuewor"},{"rt":null,"stimulus":"examples/listenAndRate/audio/R16B.mp3","key_press":null,"component":"Experiment","session":4,"experiment":"rhymePractice","item":"1","condition":"1","sessionTrial":1,"experimentTrial":1,"pList":1,"trialPart":"Listen to soundFile","trial_type":"audio-keyboard-response","trial_index":21,"time_elapsed":51029,"internal_node_id":"0.0-21.0","participant":"tuewor"},{"rt":1416.8200000422075,"responses":"{\"Q0\":2}","question_order":"[0]","component":"Experiment","session":4,"experiment":"rhymePractice","item":"1","condition":"1","sessionTrial":1,"experimentTrial":1,"pList":1,"trialPart":"question1","text":"<h3 id=\"howgooddidyoufindthisrhyme\">How good did you find this rhyme?</h3>","options":["1 = very poor rhyme","2","3","4","5","6 = very good rhyme"],"endPoints":["very poor rhyme","very good rhyme"],"trial_type":"survey-likert","trial_index":22,"time_elapsed":52449,"internal_node_id":"0.0-22.0","participant":"tuewor"},{"rt":null,"stimulus":"<div style=\"font-size:60px;\">+</div>","key_press":null,"component":"Experiment","session":4,"experiment":"rhymePractice","item":"2","condition":"2","sessionTrial":2,"experimentTrial":2,"pList":1,"trialPart":"Fixation","trial_type":"html-keyboard-response","trial_index":23,"time_elapsed":53453,"internal_node_id":"0.0-23.0","participant":"tuewor"},{"rt":null,"stimulus":"examples/listenAndRate/audio/R17G.mp3","key_press":null,"component":"Experiment","session":4,"experiment":"rhymePractice","item":"2","condition":"2","sessionTrial":2,"experimentTrial":2,"pList":1,"trialPart":"Listen to soundFile","trial_type":"audio-keyboard-response","trial_index":24,"time_elapsed":57386,"internal_node_id":"0.0-24.0","participant":"tuewor"},{"rt":14802.945000003092,"responses":"{\"Q0\":1}","question_order":"[0]","component":"Experiment","session":4,"experiment":"rhymePractice","item":"2","condition":"2","sessionTrial":2,"experimentTrial":2,"pList":1,"trialPart":"question1","text":"<h3 id=\"howgooddidyoufindthisrhyme\">How good did you find this rhyme?</h3>","options":["1 = very poor rhyme","2","3","4","5","6 = very good rhyme"],"endPoints":["very poor rhyme","very good rhyme"],"trial_type":"survey-likert","trial_index":25,"time_elapsed":72193,"internal_node_id":"0.0-25.0","participant":"tuewor"},{"rt":812.4349999707192,"stimulus":"<div style=\"text-align: left\"><h3 id=\"evaluatingrhymes\">Evaluating rhymes</h3>\n</div><br><br>","button_pressed":"0","component":"Instructions","buttonResponseText":["And now to the actual experiment!"],"trial_type":"html-button-response","trial_index":26,"time_elapsed":73008,"internal_node_id":"0.0-26.0","participant":"tuewor"},{"rt":null,"stimulus":"<div style=\"font-size:60px;\">+</div>","key_press":null,"component":"Experiment","session":5,"experiment":"rhymeRep","item":"2","condition":"1","sessionTrial":1,"experimentTrial":1,"pList":3,"trialPart":"Fixation","trial_type":"html-keyboard-response","trial_index":27,"time_elapsed":74009,"internal_node_id":"0.0-27.0","participant":"tuewor"},{"rt":null,"stimulus":"examples/listenAndRate/audio/R2B.mp3","key_press":null,"component":"Experiment","session":5,"experiment":"rhymeRep","item":"2","condition":"1","sessionTrial":1,"experimentTrial":1,"pList":3,"trialPart":"Listen to soundFile","trial_type":"audio-keyboard-response","trial_index":28,"time_elapsed":79018,"internal_node_id":"0.0-28.0","participant":"tuewor"},{"rt":2140.1649999897927,"response":"69","stimulus":"<h3 id=\"howgooddidyoufindthisrhyme\">How good did you find this rhyme?</h3>","component":"Experiment","session":5,"experiment":"rhymeRep","item":"2","condition":"1","sessionTrial":1,"experimentTrial":1,"pList":3,"trialPart":"question1","text":"<h3 id=\"howgooddidyoufindthisrhyme\">How good did you find this rhyme?</h3>","trial_type":"html-slider-response","trial_index":29,"time_elapsed":81162,"internal_node_id":"0.0-29.0","participant":"tuewor"},{"rt":null,"stimulus":"<div style=\"font-size:60px;\">+</div>","key_press":null,"component":"Experiment","session":5,"experiment":"rhymeRep","item":"1","condition":"3","sessionTrial":2,"experimentTrial":2,"pList":3,"trialPart":"Fixation","trial_type":"html-keyboard-response","trial_index":30,"time_elapsed":82166,"internal_node_id":"0.0-30.0","participant":"tuewor"},{"rt":null,"stimulus":"examples/listenAndRate/audio/R1I.mp3","key_press":null,"component":"Experiment","session":5,"experiment":"rhymeRep","item":"1","condition":"3","sessionTrial":2,"experimentTrial":2,"pList":3,"trialPart":"Listen to soundFile","trial_type":"audio-keyboard-response","trial_index":31,"time_elapsed":86768,"internal_node_id":"0.0-31.0","participant":"tuewor"},{"rt":2949.4299999205396,"response":"67","stimulus":"<h3 id=\"howgooddidyoufindthisrhyme\">How good did you find this rhyme?</h3>","component":"Experiment","session":5,"experiment":"rhymeRep","item":"1","condition":"3","sessionTrial":2,"experimentTrial":2,"pList":3,"trialPart":"question1","text":"<h3 id=\"howgooddidyoufindthisrhyme\">How good did you find this rhyme?</h3>","trial_type":"html-slider-response","trial_index":32,"time_elapsed":89721,"internal_node_id":"0.0-32.0","participant":"tuewor"},{"rt":null,"stimulus":"<div style=\"font-size:60px;\">+</div>","key_press":null,"component":"Experiment","session":5,"experiment":"rhymeRep","item":"3","condition":"2","sessionTrial":3,"experimentTrial":3,"pList":3,"trialPart":"Fixation","trial_type":"html-keyboard-response","trial_index":33,"time_elapsed":90725,"internal_node_id":"0.0-33.0","participant":"tuewor"},{"rt":null,"stimulus":"examples/listenAndRate/audio/R3G.mp3","key_press":null,"component":"Experiment","session":5,"experiment":"rhymeRep","item":"3","condition":"2","sessionTrial":3,"experimentTrial":3,"pList":3,"trialPart":"Listen to soundFile","trial_type":"audio-keyboard-response","trial_index":34,"time_elapsed":95461,"internal_node_id":"0.0-34.0","participant":"tuewor"},{"rt":2460.0450000725687,"response":"32","stimulus":"<h3 id=\"howgooddidyoufindthisrhyme\">How good did you find this rhyme?</h3>","component":"Experiment","session":5,"experiment":"rhymeRep","item":"3","condition":"2","sessionTrial":3,"experimentTrial":3,"pList":3,"trialPart":"question1","text":"<h3 id=\"howgooddidyoufindthisrhyme\">How good did you find this rhyme?</h3>","trial_type":"html-slider-response","trial_index":35,"time_elapsed":97925,"internal_node_id":"0.0-35.0","participant":"tuewor"}]