[{"path":"examples/listenAndRate","language":"en","stimuliFile":"examples/listenAndRate/rhymeShort.txt","helloFile":"examples/listenAndRate/helloScales.md","consentFile":"examples/listenAndRate/consent.md","goodbyeFile":"examples/listenAndRate/goodbye.md","logFile":"examples/listenAndRate/studyLog.json","soundCheckFile":"prosodylab/soundcheck_da.mp3","completionLink":"","completionCode":"","pListMethod":"log","participantCodeMethod":"randomAndDisplay","displayDataAfterFinish":true,"showProgressBar":true,"fullScreen":false,"hello":true,"consent":false,"languageQuestionnaire":false,"soundCheck":false,"headphoneScreener":false,"experimentSessions":true,"postExQuestionnaire":false,"musicQuestionnaire":false,"goodbye":false,"doExperimentOnly":false,"component":"experimentSettings","trial_type":"call-function","trial_index":0,"time_elapsed":2,"internal_node_id":"0.0-0.0","participant":"4ttka1"},{"rt":7096.959999995306,"stimulus":"<div style=\"text-align: left\"><h2 id=\"welcome\">Welcome!</h2>\n<p>This is experiment illustrates different kinds of rating methods:</p>\n<ul>\n<li>6-point Likert scale using number keys</li>\n<li>6-point Likert scale using mouse click</li>\n<li>Slider which returns number between 0 and 100</li>\n</ul>\n<p>You can see the spreadsheet (a tab-delimited text file) used to generate the experiment <a href=\"examples/listenAndRate/rhymeShort.txt\">here</a>.</p>\n</div><br><br>","button_pressed":"0","component":"hello","buttonResponseText":["<strong>Click here for the illustration experiment. The data will be saved but will be destroyed. Press any key if you want to proceed!</strong>"],"trial_type":"html-button-response","trial_index":1,"time_elapsed":7100,"internal_node_id":"0.0-1.0","participant":"4ttka1"},{"rt":6756.9499999517575,"stimulus":"<div style=\"text-align: left\"><h3 id=\"evaluatingrhymes\">Evaluating rhymes</h3>\n</div><br><br>","button_pressed":"0","component":"Instructions","buttonResponseText":["And now to the actual experiment!"],"trial_type":"html-button-response","trial_index":2,"time_elapsed":13858,"internal_node_id":"0.0-2.0","participant":"4ttka1"},{"rt":null,"stimulus":"<div style=\"font-size:60px;\">+</div>","key_press":null,"component":"Experiment","session":5,"experiment":"rhymeRep","item":"2","condition":"2","sessionTrial":1,"experimentTrial":1,"pList":1,"trialPart":"Fixation","trial_type":"html-keyboard-response","trial_index":3,"time_elapsed":14862,"internal_node_id":"0.0-3.0","participant":"4ttka1"},{"rt":null,"stimulus":"examples/listenAndRate/audio/R2G.mp3","key_press":null,"component":"Experiment","session":5,"experiment":"rhymeRep","item":"2","condition":"2","sessionTrial":1,"experimentTrial":1,"pList":1,"trialPart":"Listen to soundFile","trial_type":"audio-keyboard-response","trial_index":4,"time_elapsed":19510,"internal_node_id":"0.0-4.0","participant":"4ttka1"},{"rt":5861.730000004172,"response":"67","stimulus":"<h3 id=\"howgooddidyoufindthisrhyme\">How good did you find this rhyme?</h3>","component":"Experiment","session":5,"experiment":"rhymeRep","item":"2","condition":"2","sessionTrial":1,"experimentTrial":1,"pList":1,"trialPart":"question1","text":"<h3 id=\"howgooddidyoufindthisrhyme\">How good did you find this rhyme?</h3>","trial_type":"html-slider-response","trial_index":5,"time_elapsed":25375,"internal_node_id":"0.0-5.0","participant":"4ttka1"},{"rt":null,"stimulus":"<div style=\"font-size:60px;\">+</div>","key_press":null,"component":"Experiment","session":5,"experiment":"rhymeRep","item":"3","condition":"3","sessionTrial":2,"experimentTrial":2,"pList":1,"trialPart":"Fixation","trial_type":"html-keyboard-response","trial_index":6,"time_elapsed":26380,"internal_node_id":"0.0-6.0","participant":"4ttka1"},{"rt":null,"stimulus":"examples/listenAndRate/audio/R3I.mp3","key_press":null,"component":"Experiment","session":5,"experiment":"rhymeRep","item":"3","condition":"3","sessionTrial":2,"experimentTrial":2,"pList":1,"trialPart":"Listen to soundFile","trial_type":"audio-keyboard-response","trial_index":7,"time_elapsed":31152,"internal_node_id":"0.0-7.0","participant":"4ttka1"},{"rt":1483.064999920316,"response":"72","stimulus":"<h3 id=\"howgooddidyoufindthisrhyme\">How good did you find this rhyme?</h3>","component":"Experiment","session":5,"experiment":"rhymeRep","item":"3","condition":"3","sessionTrial":2,"experimentTrial":2,"pList":1,"trialPart":"question1","text":"<h3 id=\"howgooddidyoufindthisrhyme\">How good did you find this rhyme?</h3>","trial_type":"html-slider-response","trial_index":8,"time_elapsed":32639,"internal_node_id":"0.0-8.0","participant":"4ttka1"},{"rt":null,"stimulus":"<div style=\"font-size:60px;\">+</div>","key_press":null,"component":"Experiment","session":5,"experiment":"rhymeRep","item":"1","condition":"1","sessionTrial":3,"experimentTrial":3,"pList":1,"trialPart":"Fixation","trial_type":"html-keyboard-response","trial_index":9,"time_elapsed":33643,"internal_node_id":"0.0-9.0","participant":"4ttka1"},{"rt":null,"stimulus":"examples/listenAndRate/audio/R1B.mp3","key_press":null,"component":"Experiment","session":5,"experiment":"rhymeRep","item":"1","condition":"1","sessionTrial":3,"experimentTrial":3,"pList":1,"trialPart":"Listen to soundFile","trial_type":"audio-keyboard-response","trial_index":10,"time_elapsed":37781,"internal_node_id":"0.0-10.0","participant":"4ttka1"},{"rt":8713.149999966845,"response":"73","stimulus":"<h3 id=\"howgooddidyoufindthisrhyme\">How good did you find this rhyme?</h3>","component":"Experiment","session":5,"experiment":"rhymeRep","item":"1","condition":"1","sessionTrial":3,"experimentTrial":3,"pList":1,"trialPart":"question1","text":"<h3 id=\"howgooddidyoufindthisrhyme\">How good did you find this rhyme?</h3>","trial_type":"html-slider-response","trial_index":11,"time_elapsed":46498,"internal_node_id":"0.0-11.0","participant":"4ttka1"}]